
[{"sender_type":"html.Screen","sender_id":"0","ended_on":"timeout","duration":499.774,"time_run":2093.5,"time_render":1774.465,"time_show":2107.793,"time_end":2574.267,"time_commit":2575.9,"timestamp":"2023-12-11T10:17:27.280Z","time_switch":2607.567},{"sender":"CAMfeedbackGeneral","sender_type":"html.Form","sender_id":"1","ended_on":"form submission","duration":17921.333,"time_run":2576.7,"time_render":2574.267,"time_show":2607.567,"time_end":20528.9,"time_commit":20529.3,"timestamp":"2023-12-11T10:17:45.233Z","time_switch":20551.587,"feedCAM_repres":"6","feedCAM_technicalprobs":"0","feedCAM_technicalprobsText":"","feedCAM_already":"2","feedCAM_alreadyText":"uni","18":""},{"sender":"explanationSR1","sender_type":"html.Form","sender_id":"2","ended_on":"form submission","duration":43210.213,"time_run":20532.1,"time_render":20518.524,"time_show":20551.587,"time_end":63761.8,"time_commit":63762.2,"timestamp":"2023-12-11T10:18:28.466Z","time_switch":63786.998,"18":""},{"sender":"explanationSR2","sender_type":"html.Form","sender_id":"3","ended_on":"form submission","duration":28944.502,"time_run":63762.7,"time_render":63753.693,"time_show":63786.998,"time_end":92731.5,"time_commit":92731.8,"timestamp":"2023-12-11T10:18:57.435Z","time_switch":92777.006,"18":""},{"sender_type":"flow.Sequence","ended_on":"completion","duration":90623.707,"time_run":2093.2,"time_render":1774.465,"time_show":2107.793,"time_end":92731.5,"time_commit":92735.9,"timestamp":"2023-12-11T10:18:57.439Z","time_switch":92777.006}]
[{"sender_type":"html.Screen","sender_id":"0","ended_on":"timeout","duration":499.9,"time_run":1819.1,"time_render":1828.3,"time_show":1844.9,"time_end":2328.6,"time_commit":2329.5,"timestamp":"2023-12-11T10:19:46.357Z","time_switch":2344.8,"para_defocuscount":{}},{"sender":"CAMfeedbackGeneral","sender_type":"html.Form","sender_id":"1","ended_on":"form submission","duration":17514.3,"time_run":2329.8,"time_render":2328.6,"time_show":2344.8,"time_end":19859.1,"time_commit":19859.3,"timestamp":"2023-12-11T10:20:03.887Z","time_switch":19860.7,"para_defocuscount":[{"senderblur":"CAMfeedbackGeneral"}],"feedCAM_repres":"5","feedCAM_technicalprobs":"0","feedCAM_technicalprobsText":"","feedCAM_already":"0","feedCAM_alreadyText":"","19":""},{"sender":"explanationSR1","sender_type":"html.Form","sender_id":"2","ended_on":"form submission","duration":29084.2,"time_run":19860.4,"time_render":19860.7,"time_show":19860.7,"time_end":48944.9,"time_commit":48945,"timestamp":"2023-12-11T10:20:32.972Z","time_switch":48959.1,"para_defocuscount":{},"19":""},{"sender":"explanationSR2","sender_type":"html.Form","sender_id":"3","ended_on":"form submission","duration":27202.7,"time_run":48945.2,"time_render":48942.8,"time_show":48959.1,"time_end":76161.8,"time_commit":76162,"timestamp":"2023-12-11T10:21:00.189Z","time_switch":76174.3,"para_defocuscount":{},"19":""},{"sender_type":"flow.Sequence","ended_on":"completion","duration":74316.9,"time_run":1818.8,"time_render":1828.3,"time_show":1844.9,"time_end":76161.8,"time_commit":76163.4,"timestamp":"2023-12-11T10:21:00.191Z","time_switch":76174.3,"para_defocuscount":{}}]
[{"sender_type":"html.Screen","sender_id":"0","ended_on":"timeout","duration":500.3,"time_run":483.8,"time_render":482.7,"time_show":499.4,"time_end":983.1,"time_commit":984.2,"timestamp":"2023-12-11T10:48:38.292Z","time_switch":999.7},{"sender":"CAMfeedbackGeneral","sender_type":"html.Form","sender_id":"1","ended_on":"form submission","duration":64489.6,"time_run":984.6,"time_render":983.1,"time_show":999.7,"time_end":65489.3,"time_commit":65489.5,"timestamp":"2023-12-11T10:49:42.797Z","time_switch":65501.7,"feedCAM_repres":"7","feedCAM_technicalprobs":"0","feedCAM_technicalprobsText":"","feedCAM_already":"2","feedCAM_alreadyText":"Ja, vor vielen, vielen Jahren im Rahmen meines Studiums. Nicht im Sinne einer Studie wie dieser über Prolific.","18":""},{"sender":"explanationSR1","sender_type":"html.Form","sender_id":"2","ended_on":"form submission","duration":67967.3,"time_run":65490.7,"time_render":65485,"time_show":65501.7,"time_end":133469,"time_commit":133469.1,"timestamp":"2023-12-11T10:50:50.777Z","time_switch":133473.3,"18":""},{"sender":"explanationSR2","sender_type":"html.Form","sender_id":"3","ended_on":"form submission","duration":57467.8,"time_run":133469.3,"time_render":133456.6,"time_show":133473.3,"time_end":190941.1,"time_commit":190941.2,"timestamp":"2023-12-11T10:51:48.249Z","time_switch":190953,"18":""},{"sender_type":"flow.Sequence","ended_on":"completion","duration":190441.7,"time_run":483.7,"time_render":482.7,"time_show":499.4,"time_end":190941.1,"time_commit":190942.8,"timestamp":"2023-12-11T10:51:48.251Z","time_switch":190953}]
[{"sender_type":"html.Screen","sender_id":"0","ended_on":"timeout","duration":500,"time_run":1242,"time_render":1242.54,"time_show":1259.2,"time_end":1742.54,"time_commit":1743,"timestamp":"2023-12-11T10:30:56.036Z","time_switch":1759.2},{"sender":"CAMfeedbackGeneral","sender_type":"html.Form","sender_id":"1","ended_on":"form submission","duration":23547.8,"time_run":1743,"time_render":1742.54,"time_show":1759.2,"time_end":25307,"time_commit":25308,"timestamp":"2023-12-11T10:31:19.601Z","time_switch":25309.18,"feedCAM_repres":"5","feedCAM_technicalprobs":"0","feedCAM_technicalprobsText":"","feedCAM_already":"0","feedCAM_alreadyText":"","18":""},{"sender":"explanationSR1","sender_type":"html.Form","sender_id":"2","ended_on":"form submission","duration":49812.82,"time_run":25309,"time_render":25304.84,"time_show":25309.18,"time_end":75122,"time_commit":75122,"timestamp":"2023-12-11T10:32:09.416Z","time_switch":75125.82,"18":""},{"sender":"explanationSR2","sender_type":"html.Form","sender_id":"3","ended_on":"form submission","duration":64128.18,"time_run":75123,"time_render":75119.24,"time_show":75125.82,"time_end":139254,"time_commit":139254,"timestamp":"2023-12-11T10:33:13.548Z","time_switch":139259.02,"18":""},{"sender_type":"flow.Sequence","ended_on":"completion","duration":137994.8,"time_run":1242,"time_render":1242.54,"time_show":1259.2,"time_end":139254,"time_commit":139254,"timestamp":"2023-12-11T10:33:13.548Z","time_switch":139259.02}]
[{"sender_type":"html.Screen","sender_id":"0","ended_on":"timeout","duration":500,"time_run":283,"time_render":287.66,"time_show":304.32,"time_end":787.66,"time_commit":790,"timestamp":"2023-12-11T10:19:54.402Z","time_switch":804.32},{"sender":"CAMfeedbackGeneral","sender_type":"html.Form","sender_id":"1","ended_on":"form submission","duration":24287.68,"time_run":791,"time_render":787.66,"time_show":804.32,"time_end":25092,"time_commit":25093,"timestamp":"2023-12-11T10:20:18.707Z","time_switch":25104.32,"feedCAM_repres":"6","feedCAM_technicalprobs":"0","feedCAM_technicalprobsText":"","feedCAM_already":"0","feedCAM_alreadyText":"","18":""},{"sender":"explanationSR1","sender_type":"html.Form","sender_id":"2","ended_on":"form submission","duration":20058.68,"time_run":25096,"time_render":25085.98,"time_show":25104.32,"time_end":45163,"time_commit":45165,"timestamp":"2023-12-11T10:20:38.778Z","time_switch":45172.02,"18":""},{"sender":"explanationSR2","sender_type":"html.Form","sender_id":"3","ended_on":"form submission","duration":47143.98,"time_run":45166,"time_render":45158.26,"time_show":45172.02,"time_end":92316,"time_commit":92316,"timestamp":"2023-12-11T10:21:25.929Z","time_switch":92321.4,"18":""},{"sender_type":"flow.Sequence","ended_on":"completion","duration":92011.68,"time_run":283,"time_render":287.66,"time_show":304.32,"time_end":92316,"time_commit":92317,"timestamp":"2023-12-11T10:21:25.930Z","time_switch":92321.4}]
[{"sender_type":"html.Screen","sender_id":"0","ended_on":"timeout","duration":500.091,"time_run":2296.2,"time_render":2284.517,"time_show":2301.143,"time_end":2784.555,"time_commit":2785.9,"timestamp":"2023-12-11T10:21:34.632Z","time_switch":2801.234},{"sender":"CAMfeedbackGeneral","sender_type":"html.Form","sender_id":"1","ended_on":"form submission","duration":19342.366,"time_run":2786.9,"time_render":2784.555,"time_show":2801.234,"time_end":22143.6,"time_commit":22144,"timestamp":"2023-12-11T10:21:53.990Z","time_switch":22162.155,"feedCAM_repres":"7","feedCAM_technicalprobs":"0","feedCAM_technicalprobsText":"","feedCAM_already":"0","feedCAM_alreadyText":"","18":""},{"sender":"explanationSR1","sender_type":"html.Form","sender_id":"2","ended_on":"form submission","duration":37896.545,"time_run":22147.3,"time_render":22121.703,"time_show":22162.155,"time_end":60058.7,"time_commit":60059,"timestamp":"2023-12-11T10:22:31.895Z","time_switch":60078.731,"18":""},{"sender":"explanationSR2","sender_type":"html.Form","sender_id":"3","ended_on":"form submission","duration":25023.569,"time_run":60059.4,"time_render":60045.099,"time_show":60078.731,"time_end":85102.3,"time_commit":85102.6,"timestamp":"2023-12-11T10:22:56.939Z","time_switch":85111.083,"18":""},{"sender_type":"flow.Sequence","ended_on":"completion","duration":82801.157,"time_run":2296.1,"time_render":2284.517,"time_show":2301.143,"time_end":85102.3,"time_commit":85107,"timestamp":"2023-12-11T10:22:56.943Z","time_switch":85111.083}]
[{"sender_type":"html.Screen","sender_id":"0","ended_on":"timeout","duration":500,"time_run":1832.9,"time_render":1831.175,"time_show":1847.889,"time_end":2331.158,"time_commit":2332,"timestamp":"2023-12-11T10:37:48.651Z","time_switch":2347.889},{"sender":"CAMfeedbackGeneral","sender_type":"html.Form","sender_id":"1","ended_on":"form submission","duration":65455.111,"time_run":2332.4,"time_render":2331.158,"time_show":2347.889,"time_end":67803,"time_commit":67803.3,"timestamp":"2023-12-11T10:38:54.123Z","time_switch":67814.772,"feedCAM_repres":"6","feedCAM_technicalprobs":"0","feedCAM_technicalprobsText":"","feedCAM_already":"2","feedCAM_alreadyText":"kann mich nicht mehr an das Thema erinnern, aber habe schon ein paar erstellt glaube ich, im Rahmen früherer Studien und Mafo-Projekten","18":""},{"sender":"explanationSR1","sender_type":"html.Form","sender_id":"2","ended_on":"form submission","duration":57608.628,"time_run":67805.4,"time_render":67792.314,"time_show":67814.772,"time_end":125423.4,"time_commit":125423.9,"timestamp":"2023-12-11T10:39:51.744Z","time_switch":125430.79,"18":""},{"sender":"explanationSR2","sender_type":"html.Form","sender_id":"3","ended_on":"form submission","duration":81250.71,"time_run":125424.2,"time_render":125414.088,"time_show":125430.79,"time_end":206681.5,"time_commit":206682.1,"timestamp":"2023-12-11T10:41:13.000Z","time_switch":206697.809,"18":""},{"sender_type":"flow.Sequence","ended_on":"completion","duration":204833.611,"time_run":1832.8,"time_render":1831.175,"time_show":1847.889,"time_end":206681.5,"time_commit":206684.8,"timestamp":"2023-12-11T10:41:13.003Z","time_switch":206697.809}]
[{"sender_type":"html.Screen","sender_id":"0","ended_on":"timeout","duration":500.4,"time_run":980,"time_render":988.4,"time_show":1005.1,"time_end":1488.8,"time_commit":1489.7,"timestamp":"2023-12-11T10:37:31.341Z","time_switch":1505.5},{"sender":"CAMfeedbackGeneral","sender_type":"html.Form","sender_id":"1","ended_on":"form submission","duration":23390.6,"time_run":1490,"time_render":1488.8,"time_show":1505.5,"time_end":24896.1,"time_commit":24896.3,"timestamp":"2023-12-11T10:37:54.748Z","time_switch":24908.9,"feedCAM_repres":"6","feedCAM_technicalprobs":"0","feedCAM_technicalprobsText":"","feedCAM_already":"0","feedCAM_alreadyText":"","18":""},{"sender":"explanationSR1","sender_type":"html.Form","sender_id":"2","ended_on":"form submission","duration":43374.9,"time_run":24898.9,"time_render":24891.8,"time_show":24908.9,"time_end":68283.8,"time_commit":68284.1,"timestamp":"2023-12-11T10:38:38.136Z","time_switch":68294.5,"18":""},{"sender":"explanationSR2","sender_type":"html.Form","sender_id":"3","ended_on":"form submission","duration":31237.7,"time_run":68284.5,"time_render":68278.1,"time_show":68294.5,"time_end":99532.2,"time_commit":99532.5,"timestamp":"2023-12-11T10:39:09.384Z","time_switch":99537,"18":""},{"sender_type":"flow.Sequence","ended_on":"completion","duration":98527.1,"time_run":979.8,"time_render":988.4,"time_show":1005.1,"time_end":99532.2,"time_commit":99536.1,"timestamp":"2023-12-11T10:39:09.388Z","time_switch":99537}]
[{"sender_type":"html.Screen","sender_id":"0","ended_on":"timeout","duration":500.5,"time_run":808,"time_render":812.7,"time_show":829.2,"time_end":1313,"time_commit":1314,"timestamp":"2023-12-11T10:33:02.617Z","time_switch":1329.7},{"sender":"CAMfeedbackGeneral","sender_type":"html.Form","sender_id":"1","ended_on":"form submission","duration":29723.2,"time_run":1314.5,"time_render":1313,"time_show":1329.7,"time_end":31052.9,"time_commit":31053.3,"timestamp":"2023-12-11T10:33:32.357Z","time_switch":31054.2,"feedCAM_repres":"7","feedCAM_technicalprobs":"0","feedCAM_technicalprobsText":"","feedCAM_already":"2","feedCAM_alreadyText":"Arbeitnehmerzufriedenheit wiederherstellen.","18":""},{"sender":"explanationSR1","sender_type":"html.Form","sender_id":"2","ended_on":"form submission","duration":39036.9,"time_run":31055.5,"time_render":31054.1,"time_show":31054.2,"time_end":70091.1,"time_commit":70091.4,"timestamp":"2023-12-11T10:34:11.395Z","time_switch":70103.4,"18":""},{"sender":"explanationSR2","sender_type":"html.Form","sender_id":"3","ended_on":"form submission","duration":49163.3,"time_run":70091.7,"time_render":70086.3,"time_show":70103.4,"time_end":119266.7,"time_commit":119267.1,"timestamp":"2023-12-11T10:35:00.570Z","time_switch":119276.5,"18":""},{"sender_type":"flow.Sequence","ended_on":"completion","duration":118437.5,"time_run":807.8,"time_render":812.7,"time_show":829.2,"time_end":119266.7,"time_commit":119270.5,"timestamp":"2023-12-11T10:35:00.574Z","time_switch":119276.5}]
[{"sender_type":"html.Screen","sender_id":"0","ended_on":"timeout","duration":499.5,"time_run":1525.9,"time_render":1527.5,"time_show":1527.5,"time_end":2010.2,"time_commit":2011.5,"timestamp":"2023-12-11T10:45:52.928Z","time_switch":2027},{"sender":"CAMfeedbackGeneral","sender_type":"html.Form","sender_id":"1","ended_on":"form submission","duration":193372.8,"time_run":2011.9,"time_render":2010.2,"time_show":2027,"time_end":195399.8,"time_commit":195400,"timestamp":"2023-12-11T10:49:06.311Z","time_switch":195402,"feedCAM_repres":"7","feedCAM_technicalprobs":"0","feedCAM_technicalprobsText":"","feedCAM_already":"2","feedCAM_alreadyText":"In Verbindung mit Brain Storming-Ergebnisse und UML Diagramme, im Rahmen der Software-Entwicklung","18":""},{"sender":"explanationSR1","sender_type":"html.Form","sender_id":"2","ended_on":"form submission","duration":38679.3,"time_run":195401.6,"time_render":195402,"time_show":195402,"time_end":234081.3,"time_commit":234081.6,"timestamp":"2023-12-11T10:49:44.992Z","time_switch":234086.6,"18":""},{"sender":"explanationSR2","sender_type":"html.Form","sender_id":"3","ended_on":"form submission","duration":23463.8,"time_run":234081.8,"time_render":234070.5,"time_show":234086.6,"time_end":257550.4,"time_commit":257551,"timestamp":"2023-12-11T10:50:08.456Z","time_switch":257552,"18":""},{"sender_type":"flow.Sequence","ended_on":"completion","duration":256022.9,"time_run":1525.8,"time_render":1527.5,"time_show":1527.5,"time_end":257550.4,"time_commit":257556.1,"timestamp":"2023-12-11T10:50:08.461Z","time_switch":257552}]
[{"sender_type":"html.Screen","sender_id":"0","ended_on":"timeout","duration":499.6,"time_run":814.5,"time_render":811.5,"time_show":828.2,"time_end":1311.2,"time_commit":1312.5,"timestamp":"2023-12-11T10:36:02.000Z","time_switch":1327.8},{"sender":"CAMfeedbackGeneral","sender_type":"html.Form","sender_id":"1","ended_on":"form submission","duration":114455.4,"time_run":1313.3,"time_render":1311.2,"time_show":1327.8,"time_end":115783.2,"time_commit":115783.4,"timestamp":"2023-12-11T10:37:56.470Z","time_switch":115784.8,"feedCAM_repres":"6","feedCAM_technicalprobs":"0","feedCAM_technicalprobsText":"","feedCAM_already":"2","feedCAM_alreadyText":"Nachhaltigkeit","18":""},{"sender":"explanationSR1","sender_type":"html.Form","sender_id":"2","ended_on":"form submission","duration":41472.3,"time_run":115784.9,"time_render":115784.8,"time_show":115784.8,"time_end":157257.1,"time_commit":157257.2,"timestamp":"2023-12-11T10:38:37.944Z","time_switch":157263,"18":""},{"sender":"explanationSR2","sender_type":"html.Form","sender_id":"3","ended_on":"form submission","duration":2510474.4,"time_run":157257.5,"time_render":157246.7,"time_show":157263,"time_end":2667737.4,"time_commit":2667737.7,"timestamp":"2023-12-11T11:20:28.425Z","time_switch":2667766.7,"18":""},{"sender_type":"flow.Sequence","ended_on":"completion","duration":2666909.2,"time_run":814.1,"time_render":811.5,"time_show":828.2,"time_end":2667737.4,"time_commit":2667739.7,"timestamp":"2023-12-11T11:20:28.427Z","time_switch":2667766.7}]
[{"sender_type":"html.Screen","sender_id":"0","ended_on":"timeout","duration":500.4,"time_run":888.8,"time_render":891.571,"time_show":908.251,"time_end":1391.971,"time_commit":1394.7,"timestamp":"2023-12-11T10:52:53.082Z","time_switch":1408.651},{"sender":"CAMfeedbackGeneral","sender_type":"html.Form","sender_id":"1","ended_on":"form submission","duration":175422.649,"time_run":1395.4,"time_render":1391.971,"time_show":1408.651,"time_end":176831.3,"time_commit":176831.8,"timestamp":"2023-12-11T10:55:48.518Z","time_switch":176836.465,"feedCAM_repres":"6","feedCAM_technicalprobs":"1","feedCAM_technicalprobsText":"Ich bin nicht sicher, ob das Konzept erläutert wurde (oder ob man as aktiv steuern konnte), das die Verbindungen auch nur in eine bestimme Richtung zeigen konnten.","feedCAM_already":"0","feedCAM_alreadyText":"","18":""},{"sender":"explanationSR1","sender_type":"html.Form","sender_id":"2","ended_on":"form submission","duration":37240.735,"time_run":176834.3,"time_render":176819.785,"time_show":176836.465,"time_end":214077.2,"time_commit":214077.8,"timestamp":"2023-12-11T10:56:25.764Z","time_switch":214083.631,"18":""},{"sender":"explanationSR2","sender_type":"html.Form","sender_id":"3","ended_on":"form submission","duration":27701.369,"time_run":214078.3,"time_render":214066.951,"time_show":214083.631,"time_end":241785,"time_commit":241785.5,"timestamp":"2023-12-11T10:56:53.471Z","time_switch":241789.796,"18":""},{"sender_type":"flow.Sequence","ended_on":"completion","duration":240876.749,"time_run":888.7,"time_render":891.571,"time_show":908.251,"time_end":241785,"time_commit":241789.9,"timestamp":"2023-12-11T10:56:53.476Z","time_switch":241789.796}]
[{"sender_type":"html.Screen","sender_id":"0","ended_on":"timeout","duration":500.412,"time_run":756.5,"time_render":767.449,"time_show":784.142,"time_end":1267.879,"time_commit":1268.9,"timestamp":"2023-12-11T10:32:05.258Z","time_switch":1284.554},{"sender":"CAMfeedbackGeneral","sender_type":"html.Form","sender_id":"1","ended_on":"form submission","duration":18870.646,"time_run":1269.5,"time_render":1267.879,"time_show":1284.554,"time_end":20155.2,"time_commit":20155.4,"timestamp":"2023-12-11T10:32:24.144Z","time_switch":20159.578,"feedCAM_repres":"7","feedCAM_technicalprobs":"0","feedCAM_technicalprobsText":"","feedCAM_already":"0","feedCAM_alreadyText":"","18":""},{"sender":"explanationSR1","sender_type":"html.Form","sender_id":"2","ended_on":"form submission","duration":133350.522,"time_run":20157.3,"time_render":20143.233,"time_show":20159.578,"time_end":153510.1,"time_commit":153510.5,"timestamp":"2023-12-11T10:34:37.500Z","time_switch":153520.318,"18":""},{"sender":"explanationSR2","sender_type":"html.Form","sender_id":"3","ended_on":"form submission","duration":46419.682,"time_run":153510.9,"time_render":153503.609,"time_show":153520.318,"time_end":199940,"time_commit":199940.2,"timestamp":"2023-12-11T10:35:23.929Z","time_switch":199941.125,"18":""},{"sender_type":"flow.Sequence","ended_on":"completion","duration":199155.858,"time_run":756.1,"time_render":767.449,"time_show":784.142,"time_end":199940,"time_commit":199942.7,"timestamp":"2023-12-11T10:35:23.931Z","time_switch":199941.125}]
[{"sender_type":"html.Screen","sender_id":"0","ended_on":"timeout","duration":500.1,"time_run":384.4,"time_render":394.6,"time_show":411.4,"time_end":894.8,"time_commit":896.1,"timestamp":"2023-12-11T10:43:16.135Z","time_switch":911.5},{"sender":"CAMfeedbackGeneral","sender_type":"html.Form","sender_id":"1","ended_on":"form submission","duration":19673.5,"time_run":896.3,"time_render":894.8,"time_show":911.5,"time_end":20585,"time_commit":20585.1,"timestamp":"2023-12-11T10:43:35.823Z","time_switch":20597.9,"feedCAM_repres":"7","feedCAM_technicalprobs":"0","feedCAM_technicalprobsText":"","feedCAM_already":"0","feedCAM_alreadyText":"","18":""},{"sender":"explanationSR1","sender_type":"html.Form","sender_id":"2","ended_on":"form submission","duration":55071.4,"time_run":20586.2,"time_render":20581.5,"time_show":20597.9,"time_end":75669.3,"time_commit":75669.5,"timestamp":"2023-12-11T10:44:30.908Z","time_switch":75686.4,"18":""},{"sender":"explanationSR2","sender_type":"html.Form","sender_id":"3","ended_on":"form submission","duration":30729.4,"time_run":75669.8,"time_render":75669.8,"time_show":75686.4,"time_end":106415.8,"time_commit":106416,"timestamp":"2023-12-11T10:45:01.654Z","time_switch":106433.9,"18":""},{"sender_type":"flow.Sequence","ended_on":"completion","duration":106004.4,"time_run":384.2,"time_render":394.6,"time_show":411.4,"time_end":106415.8,"time_commit":106417.5,"timestamp":"2023-12-11T10:45:01.656Z","time_switch":106433.9}]
[{"sender_type":"html.Screen","sender_id":"0","ended_on":"timeout","duration":500.437,"time_run":1045.2,"time_render":1039.972,"time_show":1056.727,"time_end":1540.529,"time_commit":1541.8,"timestamp":"2023-12-11T10:39:31.968Z","time_switch":1557.164},{"sender":"CAMfeedbackGeneral","sender_type":"html.Form","sender_id":"1","ended_on":"form submission","duration":33229.236,"time_run":1542.4,"time_render":1540.529,"time_show":1557.164,"time_end":34786.4,"time_commit":34786.9,"timestamp":"2023-12-11T10:40:05.213Z","time_switch":34791.251,"feedCAM_repres":"7","feedCAM_technicalprobs":"0","feedCAM_technicalprobsText":"","feedCAM_already":"1","feedCAM_alreadyText":"","18":""},{"sender":"explanationSR1","sender_type":"html.Form","sender_id":"2","ended_on":"form submission","duration":36721.749,"time_run":34787.9,"time_render":34774.655,"time_show":34791.251,"time_end":71513,"time_commit":71513.4,"timestamp":"2023-12-11T10:40:41.939Z","time_switch":71528.823,"18":""},{"sender":"explanationSR2","sender_type":"html.Form","sender_id":"3","ended_on":"form submission","duration":27073.377,"time_run":71513.6,"time_render":71512.188,"time_show":71528.823,"time_end":98602.2,"time_commit":98602.6,"timestamp":"2023-12-11T10:41:09.028Z","time_switch":98606.581,"18":""},{"sender_type":"flow.Sequence","ended_on":"completion","duration":97545.473,"time_run":1045.1,"time_render":1039.972,"time_show":1056.727,"time_end":98602.2,"time_commit":98603.9,"timestamp":"2023-12-11T10:41:09.030Z","time_switch":98606.581}]
[{"sender_type":"html.Screen","sender_id":"0","ended_on":"timeout","duration":500.53,"time_run":625.8,"time_render":626.604,"time_show":633.779,"time_end":1127.365,"time_commit":1128.3,"timestamp":"2023-12-11T10:55:38.869Z","time_switch":1134.309},{"sender":"CAMfeedbackGeneral","sender_type":"html.Form","sender_id":"1","ended_on":"form submission","duration":57774.891,"time_run":1128.6,"time_render":1127.365,"time_show":1134.309,"time_end":58909.2,"time_commit":58909.4,"timestamp":"2023-12-11T10:56:36.650Z","time_switch":58909.107,"feedCAM_repres":"7","feedCAM_technicalprobs":"0","feedCAM_technicalprobsText":"","feedCAM_already":"2","feedCAM_alreadyText":"In der Schule, etwas lange her","18":""},{"sender":"explanationSR1","sender_type":"html.Form","sender_id":"2","ended_on":"form submission","duration":65806.693,"time_run":58910.3,"time_render":58902.163,"time_show":58909.107,"time_end":124715.8,"time_commit":124715.9,"timestamp":"2023-12-11T10:57:42.457Z","time_switch":124720.33,"18":""},{"sender":"explanationSR2","sender_type":"html.Form","sender_id":"3","ended_on":"form submission","duration":64300.07,"time_run":124716,"time_render":124713.386,"time_show":124720.33,"time_end":189020.4,"time_commit":189020.6,"timestamp":"2023-12-11T10:58:46.761Z","time_switch":189026.552,"18":""},{"sender_type":"flow.Sequence","ended_on":"completion","duration":188386.621,"time_run":625.8,"time_render":626.604,"time_show":633.779,"time_end":189020.4,"time_commit":189021.7,"timestamp":"2023-12-11T10:58:46.762Z","time_switch":189026.552}]
[{"sender_type":"html.Screen","sender_id":"0","ended_on":"timeout","duration":494.5,"time_run":498.4,"time_render":504.1,"time_show":515.2,"time_end":998.6,"time_commit":1004.4,"timestamp":"2023-12-11T10:51:41.461Z","time_switch":1009.7},{"sender":"CAMfeedbackGeneral","sender_type":"html.Form","sender_id":"1","ended_on":"form submission","duration":72899.7,"time_run":1005.2,"time_render":998.6,"time_show":1009.7,"time_end":73909.4,"time_commit":73909.7,"timestamp":"2023-12-11T10:52:54.367Z","time_switch":73922.8,"feedCAM_repres":"5","feedCAM_technicalprobs":"0","feedCAM_technicalprobsText":"","feedCAM_already":"0","feedCAM_alreadyText":"","18":""},{"sender":"explanationSR1","sender_type":"html.Form","sender_id":"2","ended_on":"form submission","duration":37942.6,"time_run":73912,"time_render":73913.1,"time_show":73922.8,"time_end":111865.4,"time_commit":111865.7,"timestamp":"2023-12-11T10:53:32.323Z","time_switch":111873.6,"18":""},{"sender":"explanationSR2","sender_type":"html.Form","sender_id":"3","ended_on":"form submission","duration":23970.1,"time_run":111866.1,"time_render":111868.5,"time_show":111873.6,"time_end":135843.7,"time_commit":135843.9,"timestamp":"2023-12-11T10:53:56.301Z","time_switch":135851.9,"18":""},{"sender_type":"flow.Sequence","ended_on":"completion","duration":135328.5,"time_run":498.2,"time_render":504.1,"time_show":515.2,"time_end":135843.7,"time_commit":135847.2,"timestamp":"2023-12-11T10:53:56.304Z","time_switch":135851.9}]
[{"sender_type":"html.Screen","sender_id":"0","ended_on":"timeout","duration":499.9,"time_run":1689,"time_render":1693.68,"time_show":1710.34,"time_end":2193.62,"time_commit":2194,"timestamp":"2023-12-11T10:44:51.501Z","time_switch":2210.24},{"sender":"CAMfeedbackGeneral","sender_type":"html.Form","sender_id":"1","ended_on":"form submission","duration":53587.76,"time_run":2194,"time_render":2193.62,"time_show":2210.24,"time_end":55798,"time_commit":55799,"timestamp":"2023-12-11T10:45:45.106Z","time_switch":55802.76,"feedCAM_repres":"6","feedCAM_technicalprobs":"0","feedCAM_technicalprobsText":"","feedCAM_already":"2","feedCAM_alreadyText":"Prolific-Studie, zum Thema Nachhaltigkeit","18":""},{"sender":"explanationSR1","sender_type":"html.Form","sender_id":"2","ended_on":"form submission","duration":39809.24,"time_run":55802,"time_render":55793.84,"time_show":55802.76,"time_end":95612,"time_commit":95613,"timestamp":"2023-12-11T10:46:24.919Z","time_switch":95614.12,"18":""},{"sender":"explanationSR2","sender_type":"html.Form","sender_id":"3","ended_on":"form submission","duration":56544.88,"time_run":95613,"time_render":95607.32,"time_show":95614.12,"time_end":152159,"time_commit":152160,"timestamp":"2023-12-11T10:47:21.466Z","time_switch":152172.78,"18":""},{"sender_type":"flow.Sequence","ended_on":"completion","duration":150448.66,"time_run":1689,"time_render":1693.68,"time_show":1710.34,"time_end":152159,"time_commit":152161,"timestamp":"2023-12-11T10:47:21.467Z","time_switch":152172.78}]
[{"sender_type":"html.Screen","sender_id":"0","ended_on":"timeout","duration":499.974,"time_run":771.6,"time_render":778.2,"time_show":794.871,"time_end":1278.199,"time_commit":1278.9,"timestamp":"2023-12-11T10:34:05.510Z","time_switch":1294.845},{"sender":"CAMfeedbackGeneral","sender_type":"html.Form","sender_id":"1","ended_on":"form submission","duration":31223.255,"time_run":1279.2,"time_render":1278.199,"time_show":1294.845,"time_end":32518.1,"time_commit":32529.3,"timestamp":"2023-12-11T10:34:36.761Z","time_switch":32531.283,"feedCAM_repres":"5","feedCAM_technicalprobs":"0","feedCAM_technicalprobsText":"","feedCAM_already":"2","feedCAM_alreadyText":"eine andere studie auf prolific","18":""},{"sender":"explanationSR1","sender_type":"html.Form","sender_id":"2","ended_on":"form submission","duration":30139.017,"time_run":32531,"time_render":32493.106,"time_show":32531.283,"time_end":62670.3,"time_commit":62682.6,"timestamp":"2023-12-11T10:35:06.910Z","time_switch":62691.137,"18":""},{"sender":"explanationSR2","sender_type":"html.Form","sender_id":"3","ended_on":"form submission","duration":17431.463,"time_run":62682.9,"time_render":62657.947,"time_show":62691.137,"time_end":80122.6,"time_commit":80127.1,"timestamp":"2023-12-11T10:35:24.355Z","time_switch":80145.861,"18":""},{"sender_type":"flow.Sequence","ended_on":"completion","duration":79327.729,"time_run":771.5,"time_render":778.2,"time_show":794.871,"time_end":80122.6,"time_commit":80128.7,"timestamp":"2023-12-11T10:35:24.356Z","time_switch":80145.861}]
[{"sender_type":"html.Screen","sender_id":"0","ended_on":"timeout","duration":500.04,"time_run":816,"time_render":830.089,"time_show":846.757,"time_end":1330.129,"time_commit":1333.8,"timestamp":"2023-12-11T10:51:32.956Z","time_switch":1346.797,"para_defocuscount":{}},{"sender":"CAMfeedbackGeneral","sender_type":"html.Form","sender_id":"1","ended_on":"form submission","duration":206746.903,"time_run":1335.1,"time_render":1330.129,"time_show":1346.797,"time_end":208093.7,"time_commit":208094.1,"timestamp":"2023-12-11T10:54:59.716Z","time_switch":208114.357,"para_defocuscount":[{"durationblur":712.9,"senderblur":"CAMfeedbackGeneral"},{"durationblur":38933.7,"senderblur":"CAMfeedbackGeneral"},{"durationblur":104384.8,"senderblur":"CAMfeedbackGeneral"}],"feedCAM_repres":"6","feedCAM_technicalprobs":"0","feedCAM_technicalprobsText":"","feedCAM_already":"2","feedCAM_alreadyText":"In einer vorherigen Studie wurde ich ebenfalls aufgefordert, eine ähnlich gestaltete Mindmap für den Klimawandel zu erstellen.","19":""},{"sender":"explanationSR1","sender_type":"html.Form","sender_id":"2","ended_on":"form submission","duration":72207.443,"time_run":208097,"time_render":208097.689,"time_show":208114.357,"time_end":280321.8,"time_commit":280322.3,"timestamp":"2023-12-11T10:56:11.944Z","time_switch":280331.156,"para_defocuscount":[{"durationblur":712.9,"senderblur":"CAMfeedbackGeneral"},{"durationblur":38933.7,"senderblur":"CAMfeedbackGeneral"},{"durationblur":104384.8,"senderblur":"CAMfeedbackGeneral"},{"durationblur":7200.6,"senderblur":"explanationSR1"}],"19":""},{"sender":"explanationSR2","sender_type":"html.Form","sender_id":"3","ended_on":"form submission","duration":39640.744,"time_run":280322.7,"time_render":280314.488,"time_show":280331.156,"time_end":319971.9,"time_commit":319972.3,"timestamp":"2023-12-11T10:56:51.594Z","time_switch":319998.031,"para_defocuscount":[{"durationblur":712.9,"senderblur":"CAMfeedbackGeneral"},{"durationblur":38933.7,"senderblur":"CAMfeedbackGeneral"},{"durationblur":104384.8,"senderblur":"CAMfeedbackGeneral"},{"durationblur":7200.6,"senderblur":"explanationSR1"},{"durationblur":6187.6,"senderblur":"explanationSR2"}],"19":""},{"sender_type":"flow.Sequence","ended_on":"completion","duration":319125.143,"time_run":815.8,"time_render":830.089,"time_show":846.757,"time_end":319971.9,"time_commit":319975,"timestamp":"2023-12-11T10:56:51.596Z","time_switch":319998.031,"para_defocuscount":{}}]
[{"sender_type":"html.Screen","sender_id":"0","ended_on":"timeout","duration":510,"time_run":427,"time_render":431,"time_show":442,"time_end":926,"time_commit":928,"timestamp":"2023-12-11T10:47:44.258Z","time_switch":952},{"sender":"CAMfeedbackGeneral","sender_type":"html.Form","sender_id":"1","ended_on":"form submission","duration":44419,"time_run":929,"time_render":926,"time_show":952,"time_end":45371,"time_commit":45371,"timestamp":"2023-12-11T10:48:28.701Z","time_switch":45397,"feedCAM_repres":"7","feedCAM_technicalprobs":"0","feedCAM_technicalprobsText":"","feedCAM_already":"2","feedCAM_alreadyText":"In der Universität im Rahmen meines Studiums und im Rahmen einer anderen Prolific Studie.","18":""},{"sender":"explanationSR1","sender_type":"html.Form","sender_id":"2","ended_on":"form submission","duration":11907,"time_run":45372,"time_render":45379,"time_show":45397,"time_end":57304,"time_commit":57304,"timestamp":"2023-12-11T10:48:40.634Z","time_switch":57339,"18":""},{"sender":"explanationSR2","sender_type":"html.Form","sender_id":"3","ended_on":"form submission","duration":24590,"time_run":57305,"time_render":57322,"time_show":57339,"time_end":81929,"time_commit":81929,"timestamp":"2023-12-11T10:49:05.259Z","time_switch":81955,"18":""},{"sender_type":"flow.Sequence","ended_on":"completion","duration":81487,"time_run":427,"time_render":431,"time_show":442,"time_end":81929,"time_commit":81930,"timestamp":"2023-12-11T10:49:05.260Z","time_switch":81955}]
[{"sender_type":"html.Screen","sender_id":"0","ended_on":"timeout","duration":501,"time_run":608,"time_render":609,"time_show":617,"time_end":1098,"time_commit":1099,"timestamp":"2023-12-11T10:41:49.370Z","time_switch":1118},{"sender":"CAMfeedbackGeneral","sender_type":"html.Form","sender_id":"1","ended_on":"form submission","duration":21970,"time_run":1099,"time_render":1098,"time_show":1118,"time_end":23088,"time_commit":23088,"timestamp":"2023-12-11T10:42:11.360Z","time_switch":23122,"feedCAM_repres":"6","feedCAM_technicalprobs":"0","feedCAM_technicalprobsText":"","feedCAM_already":"2","feedCAM_alreadyText":"Nachhaltigkeit","18":""},{"sender":"explanationSR1","sender_type":"html.Form","sender_id":"2","ended_on":"form submission","duration":30068,"time_run":23089,"time_render":23103,"time_show":23122,"time_end":53190,"time_commit":53190,"timestamp":"2023-12-11T10:42:41.463Z","time_switch":53207,"18":""},{"sender":"explanationSR2","sender_type":"html.Form","sender_id":"3","ended_on":"form submission","duration":33402,"time_run":53191,"time_render":53195,"time_show":53207,"time_end":86609,"time_commit":86610,"timestamp":"2023-12-11T10:43:14.884Z","time_switch":86635,"18":""},{"sender_type":"flow.Sequence","ended_on":"completion","duration":85992,"time_run":608,"time_render":609,"time_show":617,"time_end":86609,"time_commit":86610,"timestamp":"2023-12-11T10:43:14.884Z","time_switch":86635}]
[{"sender_type":"html.Screen","sender_id":"0","ended_on":"timeout","duration":500,"time_run":638,"time_render":639,"time_show":648,"time_end":1131,"time_commit":1134,"timestamp":"2023-12-11T10:46:34.105Z","time_switch":1148},{"sender":"CAMfeedbackGeneral","sender_type":"html.Form","sender_id":"1","ended_on":"form submission","duration":46066,"time_run":1134,"time_render":1131,"time_show":1148,"time_end":47214,"time_commit":47214,"timestamp":"2023-12-11T10:47:20.185Z","time_switch":47248,"feedCAM_repres":"7","feedCAM_technicalprobs":"0","feedCAM_technicalprobsText":"","feedCAM_already":"1","feedCAM_alreadyText":"","18":""},{"sender":"explanationSR1","sender_type":"html.Form","sender_id":"2","ended_on":"form submission","duration":25942,"time_run":47215,"time_render":47230,"time_show":47248,"time_end":73190,"time_commit":73190,"timestamp":"2023-12-11T10:47:46.161Z","time_switch":73214,"18":""},{"sender":"explanationSR2","sender_type":"html.Form","sender_id":"3","ended_on":"form submission","duration":22923,"time_run":73191,"time_render":73198,"time_show":73214,"time_end":96137,"time_commit":96137,"timestamp":"2023-12-11T10:48:09.108Z","time_switch":96164,"18":""},{"sender_type":"flow.Sequence","ended_on":"completion","duration":95489,"time_run":638,"time_render":639,"time_show":648,"time_end":96137,"time_commit":96138,"timestamp":"2023-12-11T10:48:09.108Z","time_switch":96164}]
[{"sender_type":"html.Screen","sender_id":"0","ended_on":"timeout","duration":499.83,"time_run":891.4,"time_render":889.503,"time_show":906.164,"time_end":1389.333,"time_commit":1394.1,"timestamp":"2023-12-11T10:52:43.623Z","time_switch":1405.994},{"sender":"CAMfeedbackGeneral","sender_type":"html.Form","sender_id":"1","ended_on":"form submission","duration":26171.206,"time_run":1394.9,"time_render":1389.333,"time_show":1405.994,"time_end":27577.2,"time_commit":27577.7,"timestamp":"2023-12-11T10:53:09.807Z","time_switch":27580.65,"feedCAM_repres":"6","feedCAM_technicalprobs":"0","feedCAM_technicalprobsText":"","feedCAM_already":"2","feedCAM_alreadyText":"Studie über Verständnis von Nachhaltigkeit","18":""},{"sender":"explanationSR1","sender_type":"html.Form","sender_id":"2","ended_on":"form submission","duration":44456.85,"time_run":27580.1,"time_render":27563.989,"time_show":27580.65,"time_end":72037.5,"time_commit":72037.9,"timestamp":"2023-12-11T10:53:54.267Z","time_switch":72049.546,"18":""},{"sender":"explanationSR2","sender_type":"html.Form","sender_id":"3","ended_on":"form submission","duration":38380.054,"time_run":72038.2,"time_render":72032.885,"time_show":72049.546,"time_end":110429.6,"time_commit":110429.9,"timestamp":"2023-12-11T10:54:32.659Z","time_switch":110436.799,"18":""},{"sender_type":"flow.Sequence","ended_on":"completion","duration":109523.436,"time_run":891,"time_render":889.503,"time_show":906.164,"time_end":110429.6,"time_commit":110433.8,"timestamp":"2023-12-11T10:54:32.663Z","time_switch":110436.799}]
[{"sender_type":"html.Screen","sender_id":"0","ended_on":"timeout","duration":500.176,"time_run":499.8,"time_render":498.489,"time_show":515.176,"time_end":998.751,"time_commit":999.5,"timestamp":"2023-12-11T10:55:25.281Z","time_switch":1015.352},{"sender":"CAMfeedbackGeneral","sender_type":"html.Form","sender_id":"1","ended_on":"form submission","duration":53105.848,"time_run":999.9,"time_render":998.751,"time_show":1015.352,"time_end":54121.2,"time_commit":54121.5,"timestamp":"2023-12-11T10:56:18.402Z","time_switch":54152.296,"feedCAM_repres":"6","feedCAM_technicalprobs":"0","feedCAM_technicalprobsText":"","feedCAM_already":"1","feedCAM_alreadyText":"","18":""},{"sender":"explanationSR1","sender_type":"html.Form","sender_id":"2","ended_on":"form submission","duration":53975.204,"time_run":54122.4,"time_render":54135.796,"time_show":54152.296,"time_end":108127.5,"time_commit":108127.7,"timestamp":"2023-12-11T10:57:12.409Z","time_switch":108139.655,"18":""},{"sender":"explanationSR2","sender_type":"html.Form","sender_id":"3","ended_on":"form submission","duration":168590.945,"time_run":108127.8,"time_render":108123.189,"time_show":108139.655,"time_end":276730.6,"time_commit":276730.9,"timestamp":"2023-12-11T11:00:01.012Z","time_switch":276736.954,"18":""},{"sender_type":"flow.Sequence","ended_on":"completion","duration":276215.424,"time_run":499.7,"time_render":498.489,"time_show":515.176,"time_end":276730.6,"time_commit":276732.2,"timestamp":"2023-12-11T11:00:01.013Z","time_switch":276736.954}]
[{"sender_type":"html.Screen","sender_id":"0","ended_on":"timeout","duration":517.495,"time_run":1567.7,"time_render":1556.299,"time_show":1573.007,"time_end":2057.172,"time_commit":2060,"timestamp":"2023-12-11T11:04:01.593Z","time_switch":2090.502},{"sender":"CAMfeedbackGeneral","sender_type":"html.Form","sender_id":"1","ended_on":"form submission","duration":39971.198,"time_run":2061.6,"time_render":2057.172,"time_show":2090.502,"time_end":42061.7,"time_commit":42062.5,"timestamp":"2023-12-11T11:04:41.595Z","time_switch":42068.332,"feedCAM_repres":"6","feedCAM_technicalprobs":"0","feedCAM_technicalprobsText":"","feedCAM_already":"2","feedCAM_alreadyText":"beruflicher Kontext","18":""},{"sender":"explanationSR1","sender_type":"html.Form","sender_id":"2","ended_on":"form submission","duration":54668.868,"time_run":42067.2,"time_render":42019.42,"time_show":42068.332,"time_end":96737.2,"time_commit":96739.3,"timestamp":"2023-12-11T11:05:36.272Z","time_switch":96737.367,"18":""},{"sender":"explanationSR2","sender_type":"html.Form","sender_id":"3","ended_on":"form submission","duration":59703.733,"time_run":96740.3,"time_render":96718.561,"time_show":96737.367,"time_end":156441.1,"time_commit":156441.7,"timestamp":"2023-12-11T11:06:35.974Z","time_switch":156441.6,"18":""},{"sender_type":"flow.Sequence","ended_on":"completion","duration":154868.093,"time_run":1567.1,"time_render":1556.299,"time_show":1573.007,"time_end":156441.1,"time_commit":156447.3,"timestamp":"2023-12-11T11:06:35.979Z","time_switch":156441.6}]
[{"sender_type":"html.Screen","sender_id":"0","ended_on":"timeout","duration":500,"time_run":410.9,"time_render":416.519,"time_show":432.144,"time_end":916.519,"time_commit":917.9,"timestamp":"2023-12-11T11:05:58.353Z","time_switch":932.144},{"sender":"CAMfeedbackGeneral","sender_type":"html.Form","sender_id":"1","ended_on":"form submission","duration":27984.156,"time_run":918.5,"time_render":916.519,"time_show":932.144,"time_end":28916.3,"time_commit":28916.6,"timestamp":"2023-12-11T11:06:26.357Z","time_switch":28932.144,"feedCAM_repres":"6","feedCAM_technicalprobs":"0","feedCAM_technicalprobsText":"","feedCAM_already":"1","feedCAM_alreadyText":"","18":""},{"sender":"explanationSR1","sender_type":"html.Form","sender_id":"2","ended_on":"form submission","duration":76337.656,"time_run":28918.2,"time_render":28900.894,"time_show":28932.144,"time_end":105269.8,"time_commit":105270.1,"timestamp":"2023-12-11T11:07:42.716Z","time_switch":105275.894,"18":""},{"sender":"explanationSR2","sender_type":"html.Form","sender_id":"3","ended_on":"form submission","duration":49366.406,"time_run":105270.5,"time_render":105260.269,"time_show":105275.894,"time_end":154642.3,"time_commit":154642.5,"timestamp":"2023-12-11T11:08:32.092Z","time_switch":154650.894,"18":""},{"sender_type":"flow.Sequence","ended_on":"completion","duration":154210.156,"time_run":410.8,"time_render":416.519,"time_show":432.144,"time_end":154642.3,"time_commit":154644.8,"timestamp":"2023-12-11T11:08:32.094Z","time_switch":154650.894}]
[{"sender_type":"html.Screen","sender_id":"0","ended_on":"timeout","duration":500,"time_run":919.9,"time_render":926.1,"time_show":933,"time_end":1426.1,"time_commit":1426.6,"timestamp":"2023-12-11T10:59:57.070Z","time_switch":1433},{"sender":"CAMfeedbackGeneral","sender_type":"html.Form","sender_id":"1","ended_on":"form submission","duration":10408.7,"time_run":1427,"time_render":1426.1,"time_show":1433,"time_end":11841.7,"time_commit":11841.8,"timestamp":"2023-12-11T11:00:07.485Z","time_switch":11849.7,"feedCAM_repres":"7","feedCAM_technicalprobs":"0","feedCAM_technicalprobsText":"","feedCAM_already":"0","feedCAM_alreadyText":"","18":""},{"sender":"explanationSR1","sender_type":"html.Form","sender_id":"2","ended_on":"form submission","duration":25321.2,"time_run":11842.8,"time_render":11835.8,"time_show":11849.7,"time_end":37170.9,"time_commit":37171.1,"timestamp":"2023-12-11T11:00:32.815Z","time_switch":37176.2,"18":""},{"sender":"explanationSR2","sender_type":"html.Form","sender_id":"3","ended_on":"form submission","duration":11945.7,"time_run":37171.2,"time_render":37173.4,"time_show":37176.2,"time_end":49121.9,"time_commit":49122,"timestamp":"2023-12-11T11:00:44.765Z","time_switch":49127.6,"18":""},{"sender_type":"flow.Sequence","ended_on":"completion","duration":48188.9,"time_run":919.8,"time_render":926.1,"time_show":933,"time_end":49121.9,"time_commit":49123.3,"timestamp":"2023-12-11T11:00:44.767Z","time_switch":49127.6}]
[{"sender_type":"html.Screen","sender_id":"0","ended_on":"timeout","duration":499.964,"time_run":1015.4,"time_render":1018.254,"time_show":1034.885,"time_end":1518.356,"time_commit":1520.1,"timestamp":"2023-12-11T10:58:21.446Z","time_switch":1534.849},{"sender":"CAMfeedbackGeneral","sender_type":"html.Form","sender_id":"1","ended_on":"form submission","duration":13591.151,"time_run":1520.7,"time_render":1518.356,"time_show":1534.849,"time_end":15126,"time_commit":15126.3,"timestamp":"2023-12-11T10:58:35.052Z","time_switch":15152.134,"feedCAM_repres":"5","feedCAM_technicalprobs":"0","feedCAM_technicalprobsText":"","feedCAM_already":"2","feedCAM_alreadyText":"Nachhaltigkeit","18":""},{"sender":"explanationSR1","sender_type":"html.Form","sender_id":"2","ended_on":"form submission","duration":15824.566,"time_run":15129,"time_render":15118.933,"time_show":15152.134,"time_end":30976.7,"time_commit":30977.2,"timestamp":"2023-12-11T10:58:50.903Z","time_switch":31019.595,"18":""},{"sender":"explanationSR2","sender_type":"html.Form","sender_id":"3","ended_on":"form submission","duration":15775.505,"time_run":30977.7,"time_render":30969.943,"time_show":31019.595,"time_end":46795.1,"time_commit":46795.4,"timestamp":"2023-12-11T10:59:06.722Z","time_switch":46854.068,"18":""},{"sender_type":"flow.Sequence","ended_on":"completion","duration":45760.215,"time_run":1015.1,"time_render":1018.254,"time_show":1034.885,"time_end":46795.1,"time_commit":46798.6,"timestamp":"2023-12-11T10:59:06.726Z","time_switch":46854.068}]
[{"para_defocuscount":[],"sender_type":"html.Screen","sender_id":"0","ended_on":"timeout","duration":500.1,"time_run":1135,"time_render":1132.8,"time_show":1149.4,"time_end":1632.8,"time_commit":1635.3,"timestamp":"2023-12-11T12:07:35.951Z","time_switch":1649.5},{"para_defocuscount":{},"sender":"CAMfeedbackGeneral","sender_type":"html.Form","sender_id":"1","ended_on":"form submission","duration":47640.8,"time_run":1635.8,"time_render":1632.8,"time_show":1649.5,"time_end":49290.3,"time_commit":49290.5,"timestamp":"2023-12-11T12:08:23.606Z","time_switch":49298.6,"feedCAM_repres":"7","feedCAM_technicalprobs":"0","feedCAM_technicalprobsText":"","feedCAM_already":"2","feedCAM_alreadyText":"Nachhaltigkiet","19":""},{"para_defocuscount":[{"durationblur":4691,"senderblur":"explanationSR1"},{"durationblur":5136.5,"senderblur":"explanationSR1"},{"durationblur":482.7,"senderblur":"explanationSR1"},{"durationblur":5069.5,"senderblur":"explanationSR1"},{"durationblur":3651.6,"senderblur":"explanationSR1"},{"durationblur":1245.4,"senderblur":"explanationSR1"}],"sender":"explanationSR1","sender_type":"html.Form","sender_id":"2","ended_on":"form submission","duration":70389.4,"time_run":49291.8,"time_render":49282,"time_show":49298.6,"time_end":119688,"time_commit":119688.3,"timestamp":"2023-12-11T12:09:34.004Z","time_switch":119697.4,"19":""},{"para_defocuscount":[{"durationblur":4691,"senderblur":"explanationSR1"},{"durationblur":5136.5,"senderblur":"explanationSR1"},{"durationblur":482.7,"senderblur":"explanationSR1"},{"durationblur":5069.5,"senderblur":"explanationSR1"},{"durationblur":3651.6,"senderblur":"explanationSR1"},{"durationblur":1245.4,"senderblur":"explanationSR1"},{"durationblur":2150.7,"senderblur":"explanationSR2"}],"sender":"explanationSR2","sender_type":"html.Form","sender_id":"3","ended_on":"form submission","duration":46030.7,"time_run":119688.5,"time_render":119680.7,"time_show":119697.4,"time_end":165728.1,"time_commit":165728.2,"timestamp":"2023-12-11T12:10:20.043Z","time_switch":165746.6,"19":""},{"para_defocuscount":{},"sender_type":"flow.Sequence","ended_on":"completion","duration":164578.7,"time_run":1134.8,"time_render":1132.8,"time_show":1149.4,"time_end":165728.1,"time_commit":165730.5,"timestamp":"2023-12-11T12:10:20.045Z","time_switch":165746.6}]
